File: Battery3-main/Input/83758_VQ.txt
RBG_CYC_83758_Nw_c0_41V_40C_180416_Lowercutoff_100DOD_C3C3_0000_11_3 (300407 Points)
Capacity (mAh)	Voltage (V)
0	3.7912
134.52	3.5587
212.6	3.2021
11.21	3.4483
89.68	3.6517
173.76	3.918
28.03	3.9171
100.89	3.6216
184.97	3.4185
5.14	3.32
89.68	3.6504
184.97	3.9691
39.24	3.8544
117.71	3.5856
201.78	3.3429
5.61	3.3113
78.47	3.6325
156.94	3.847
214.74	4.0984
61.66	3.7524
128.92	3.5636
201.78	3.3364
3.61	3.2449
50.45	3.5525
123.31	3.7205
196.18	4.0287
33.63	3.8789
106.5	3.6049
179.36	3.4294
0	3.0378
33.63	3.505
106.5	3.6808
179.36	3.9539
5.61	4.0411
67.26	3.7273
128.92	3.5615
132.82	3.7326
25.22	3.461
144.58	3.5512
35.3	3.8842
207.39	3.2059
5.61	3.293
61.66	3.589
134.52	3.7627
207.39	4.0941
50.45	3.7996
123.31	3.5701
201.78	3.2986
7.79	3.342
78.47	3.6343
162.55	3.8867
22.42	3.9369
100.89	3.6145
184.97	3.4077
2.28	3.1845
56.05	3.5711
151.34	3.8383
22.42	3.936
117.71	3.5788
204.13	3.2269
16.82	3.4604
112.1	3.6976
207.18	4.0981
78.47	3.6793
173.76	3.4362
3.68	3.2353
72.87	3.6225
168.15	3.9189
33.63	3.8743
117.71	3.5776
199.73	3.2945
10.52	3.3909
95.29	3.6641
190.57	4.0246
56.05	3.7713
119.37	3.7
20.17	3.452
144.58	3.5441
43.71	3.8439
5.36	3.2831
78.47	3.6352
173.76	3.949
39.25	3.847
134.52	3.5425
206.79	3.0797
22.42	3.4768
117.71	3.7165
207.96	4.0981
84.08	3.6566
173.76	3.4319
0.49	3.0822
44.84	3.536
128.92	3.7552
207.51	4.0981
72.87	3.6969
156.94	3.4753
207.37	3.0009
22.42	3.4771
112.1	3.7025
205.59	4.0984
78.47	3.6746
179.36	3.4133
5.32	3.2828
78.47	3.6368
173.76	3.9574
44.84	3.82
140.13	3.5255
205.95	3.0298
39.24	3.5212
140.13	3.8054
16.82	3.9645
117.71	3.5729
203.33	3.1203
39.24	3.5212
203.42	4.0866
110.96	3.6793
15.13	3.4247
141.21	3.5456
95.29	3.6207
196.18	3.2899
16.82	3.4607
123.31	3.74
11.21	4.0017
123.31	3.5608
0.49	3.0815
78.47	3.6374
196.18	4.0733
95.29	3.6194
200.47	3.1749
44.84	3.5367
162.55	3.9133
61.66	3.7406
179.36	3.4071
15.19	3.4511
134.52	3.7868
33.63	3.8702
151.34	3.4855
5.32	3.2828
100.89	3.6796
0	4.0866
106.5	3.5928
200.19	3.155
33.63	3.5078
140.13	3.8138
22.42	3.9257
134.52	3.5339
0.54	3.0859
72.87	3.6253
184.97	4.0249
78.47	3.669
190.57	3.3386
15.23	3.4517
196.7	4.0659
109.28	3.6793
20.18	3.4536
149.63	3.5109
140.13	3.5174
1.31	3.1346
72.87	3.6253
179.36	4.0001
50.45	3.7896
156.94	3.4616
2.3	3.1832
78.47	3.639
184.97	4.0293
72.87	3.6898
168.17	3.4337
3.61	3.2319
72.87	3.6259
168.15	3.9502
44.84	3.8154
140.13	3.5146
201.78	3.0195
39.23	3.5221
134.52	3.7949
5.61	4.0352
100.89	3.6015
190.57	3.3159
5.61	3.2893
89.68	3.6604
196.18	4.0916
78.47	3.6662
184.97	3.3711
15.23	3.4514
117.71	3.7313
5.34	4.0361
106.5	3.5884
196.17	3.1873
33.63	3.5084
140.12	3.824
80.71	3.6259
1.68	3.1265
129.47	3.5636
43.72	3.8377
16.82	3.4616
123.31	3.7521
5.61	4.0336
112.1	3.5757
197.78	3.1215
44.84	3.5382
162.55	3.9313
61.66	3.7341
179.38	3.3928
15.19	3.4523
128.92	3.7779
28.03	3.8938
145.73	3.4908
3.62	3.2322
95.29	3.6731
0	4.086
123.31	3.5512
2.26	3.1814
100.89	3.6861
199.84	4.0981
117.71	3.5624
1.27	3.1324
95.29	3.6743
5.61	4.0321
134.52	3.5233
5.29	3.2828
112.1	3.7177
22.42	3.9217
151.34	3.4675
7.73	3.3404
123.31	3.7589
33.63	3.8656
162.55	3.4393
15.17	3.4526
140.13	3.833
50.44	3.7837
173.75	3.4064
11.21	3.4018
123.31	3.7596
22.42	3.9211
145.73	3.4852
10.48	3.3916
128.92	3.7841
39.24	3.8377
168.15	3.4223
16.82	3.4635
145.73	3.8625
56.05	3.7562
184.97	3.3401
33.63	3.5106
162.55	3.9434
72.86	3.6817
132.81	3.7797
57.16	3.5556
191.63	3.2672
112.63	3.5962
56.05	3.7562
184.97	3.3355
33.63	3.5106
156.94	3.9183
61.66	3.7298
179.36	3.3807
15.13	3.453
134.52	3.8132
33.63	3.864
151.34	3.4626
5.29	3.2831
100.89	3.691
4.76	4.0355
117.71	3.559
196.83	2.9997
67.26	3.6151
184.96	4.0593
84.08	3.6399
190.23	3.2214
33.63	3.5112
151.34	3.8953
50.45	3.781
168.15	3.4173
10.48	3.3922
117.7	3.745
11.21	3.984
117.71	3.5577
196.1	3.0003
67.26	3.6157
194.33	4.0978
106.5	3.5816
0	3.035
84.07	3.6557
0	4.0854
60.52	3.7568
188.28	4.0438
114.32	3.7075
112.1	3.7208
22.42	3.9198
151.34	3.4588
10.48	3.3922
128.92	3.7946
39.24	3.8349
168.15	3.4142
16.82	3.4647
145.75	3.8736
56.05	3.7531
183.79	3.3175
33.63	3.5119
162.55	3.9561
72.87	3.678
189.64	3.195
50.45	3.5596
173.76	4.0125
89.68	3.6204
193.37	3.0633
67.26	3.6173
194.62	4.0981
123.31	3.5419
3.62	3.2341
112.1	3.7298
39.24	3.8337
179.36	3.3618
44.84	3.5422
193.11	4.0981
140.13	3.492
16.82	3.465
168.15	3.9884
106.5	3.5785
5.34	3.2859
134.52	3.8262
72.87	3.6765
193.88	2.9988
100.89	3.696
39.23	3.8327
184.97	3.2713
67.26	3.6176
5.61	4.0237
156.94	3.4412
33.63	3.5134
184.97	4.0776
123.31	3.5398
10.46	3.3928
151.34	3.9093
89.68	3.6185
1.09	3.1197
137.83	3.5215
68.92	3.7183
0	4.0938
184.97	3.2641
67.26	3.6179
5.61	4.0231
151.34	3.4533
15.11	3.4548
151.34	3.9121
84.08	3.6346
0	3.036
106.5	3.7152
44.84	3.8045
187.09	3.2009
78.47	3.648
16.82	3.949
168.15	3.4055
44.84	3.5432
191.7	4.0978
134.52	3.5053
15.06	3.4545
162.55	3.9694
100.89	3.5887
3.33	3.2248
128.92	3.8073
67.26	3.6972
191.65	3.0177
95.29	3.6848
28.02	3.8882
179.36	3.3345
44.84	3.5438
184.97	4.0869
112.1	3.563
2.3	3.1839
112.1	3.7375
44.84	3.8033
129.43	3.7875
65.56	3.5884
2.81	3.1767
141.2	3.5026
182.41	3.2809
50.44	3.5621
189.14	4.0978
117.7	3.5494
3.77	3.2387
117.7	3.7608
44.84	3.8027
179.36	3.3246
44.84	3.5444
184.96	4.091
112.1	3.5615
2.3	3.1842
112.1	3.7394
39.23	3.8306
178.91	3.3258
44.84	3.5444
184.96	4.0938
112.1	3.5611
1.27	3.1343
106.49	3.7202
28.02	3.8879
168.15	3.3987
39.23	3.5295
188.53	4.0978
128.91	3.5171
11.21	3.4052
156.94	3.9512
95.29	3.5993
2.32	3.1854
123.31	3.789
61.65	3.7199
188.08	3.0905
89.68	3.6746
28.02	3.8873
178.43	3.3206
56.05	3.5828
0	4.0845
145.73	3.4598
22.42	3.4849
173.75	4.0395
112.1	3.5593
5.6	3.2924
140.12	3.8715
78.46	3.6486
0	3.0735
106.49	3.7233
44.84	3.8008
184.04	3.1963
72.86	3.6374
26.89	3.9093
159.68	3.927
97.49	3.6734
95.28	3.6858
28.02	3.8873
178.01	3.3159
56.05	3.5835
0	4.0842
145.73	3.4582
22.42	3.4849
173.75	4.0438
112.1	3.558
5.6	3.2927
140.12	3.8746
72.86	3.669
188.83	2.9991
100.89	3.7069
50.44	3.772
187.69	3.0499
106.49	3.7255
56.05	3.7444
188.57	2.9988
112.09	3.7472
67.26	3.692
0.49	3.0834
123.31	3.7961
72.86	3.6681
1.36	3.1401
128.91	3.8237
78.47	3.6464
2.35	3.187
134.51	3.851
84.07	3.6275
3.77	3.2397
140.12	3.8789
89.68	3.6108
146.23	3.8792
92.45	3.6635
33.62	3.4917
178.17	3.337
56.05	3.5841
5.6	4.0175
168.14	3.3885
61.65	3.6036
11.21	3.9797
173.77	3.3519
67.26	3.6232
16.81	3.9474
177.26	3.2998
61.65	3.6039
11.21	3.9797
162.54	3.4071
39.23	3.5317
186.2	4.0978
128.91	3.5088
11.21	3.4058
152.84	3.9459
106.49	3.568
10.44	3.394
173.75	4.055
112.09	3.554
15.08	3.457
179.35	4.086
145.72	3.453
50.44	3.5655
16.81	3.9465
179.36	3.2477
89.68	3.6796
56.05	3.7422
0.5	3.0846
128.91	3.8299
95.28	3.594
10.43	3.3937
173.75	4.0581
134.52	3.4864
39.23	3.532
5.6	4.0166
179.36	3.2372
84.07	3.6672
50.44	3.7695
186.3	2.9994
128.91	3.8327
95.28	3.5934
5.27	3.2849
145.72	3.9155
100.88	3.5794
5.6	3.2936
156.93	3.9729
117.7	3.5382
16.81	3.4685
184.93	4.0978
156.93	3.4201
121.02	3.5553
65.55	3.7245
10.09	4.0014
3.76	3.239
145.72	3.9171
100.89	3.5788
5.6	3.293
156.93	3.975
112.09	3.5518
10.42	3.3944
162.53	4.0054
117.7	3.537
11.21	3.4071
168.14	4.0352
123.3	3.5202
15	3.457
173.74	4.0659
128.91	3.5026
16.81	3.4694
179.35	4.0972
134.51	3.4815
22.42	3.4867
182.69	4.0978
140.12	3.4626
16.81	3.4691
179.34	4.0984
140.11	3.4623
16.81	3.4694
182.52	4.0978
151.32	3.4334
61.65	3.6067
28.02	3.8839
181.1	3.1467
106.48	3.7369
72.86	3.6625
2.86	3.2025
149.6	3.4626
97.49	3.6135
45.38	3.8178
106.48	3.7366
78.46	3.6411
5.29	3.2859
156.92	3.9815
123.3	3.5177
28.02	3.5035
0	4.0832
168.13	3.3696
72.86	3.6424
39.23	3.8247
183.53	3.0288
117.7	3.7875
78.46	3.6383
5.6	3.2942
162.53	4.0135
128.9	3.4982
39.23	3.5339
3.4	4.033
172.58	3.3156
78.46	3.6576
44.84	3.7949
183.7	2.9997
123.3	3.8157
95.28	3.5894
10.39	3.395
173.75	4.077
140.12	3.4588
44.84	3.5497
11.21	3.9797
176.26	3.2406
89.68	3.6855
56.05	3.7375
137.83	3.8603
89.09	3.6619
38.66	3.5057
184.9	3.0502
106.49	3.741
72.86	3.6607
2.8	3.2068
151.32	3.9589
117.7	3.5314
28.02	3.5047
11.21	3.9797
178.19	3.182
112.1	3.7664
89.67	3.603
16.81	3.47
0	4.0832
173.75	3.2787
100.88	3.7217
78.46	3.638
10.41	3.395
180.91	4.0978
162.54	3.3888
84.07	3.6728
61.65	3.7093
5.29	3.2868
173.75	4.0835
151.33	3.4263
72.86	3.6449
50.44	3.7651
2.28	3.1863
156.94	3.9933
134.51	3.4716
56.05	3.589
28.02	3.8829
182.12	2.9994
47.06	3.5351
3.36	3.1966
151.28	3.4548
102.53	3.5965
106.49	3.5593
28.02	3.5047
5.6	4.0166
177.86	3.1609
112.1	3.7704
89.68	3.6015
11.21	3.408
178.11	4.0978
145.73	3.4399
50.44	3.5695
16.81	3.9462
179.28	3.1042
106.49	3.7478
84.07	3.6176
11.21	3.4083
181.54	4.0978
171.53	3.2936
95.28	3.7059
72.86	3.6573
7.72	3.3451
177.84	4.0978
156.94	3.4046
78.47	3.6613
56.05	3.7348
3.61	3.2369
162.54	4.0308
140.12	3.4526
61.65	3.6101
39.23	3.8222
0.49	3.0859
145.73	3.9419
123.31	3.5081
117.66	3.554
72.28	3.6904
26.9	3.9081
67.26	3.6297
44.84	3.7924
0.5	3.0868
134.51	3.8857
100.88	3.5701
14.93	3.4585
179.23	4.0978
151.35	3.4204
56.05	3.5903
22.42	3.9136
175.71	3.1789
106.49	3.7515
78.47	3.6346
10.46	3.3981
179.92	4.0978
171.19	3.2781
112.1	3.7769
89.7	3.5987
10.44	3.3971
173.75	4.0987
140.12	3.4499
50.44	3.5708
16.81	3.9462
173.75	3.2152
95.28	3.7093
61.65	3.705
1.23	3.1361
140.12	3.9192
100.89	3.5686
11.21	3.4092
176.81	4.0978
145.73	3.4343
164.73	4.0132
124.39	3.8048
82.37	3.6495
117.7	3.8002
84.07	3.6145
7.75	3.346
168.15	4.0714
128.91	3.4827
44.84	3.5528
3.46	4.0324
173.25	3.2139
100.89	3.7317
78.47	3.6325
10.44	3.3971
178.08	4.0978
162.54	3.3714
88.09	3.6898
61.65	3.7034
5.31	3.2886
173.5	4.0978
151.33	3.4151
72.86	3.6486
56.05	3.7317
5.31	3.2886
178.76	4.0978
170.84	3.2548
106.49	3.7571
100.89	3.5667
33.63	3.5221
28.02	3.8808
0.45	3.0815
156.94	4.0147
151.33	3.4136
84.07	3.6796
78.47	3.6309
149.6	3.9409
110.94	3.7484
70.6	3.6185
78.47	3.6631
67.26	3.6765
10.44	3.3975
178.19	4.0978
172.82	3.1925
117.7	3.8126
112.1	3.5354
44.84	3.554
39.27	3.8191
2.3	3.1885
168.15	4.082
162.54	3.3624
95.28	3.7152
89.68	3.5946
22.42	3.4905
22.42	3.9127
0.49	3.0877
156.94	4.0203
157	3.3903
89.68	3.6972
78.47	3.6297
28.02	3.5072
28.02	3.8802
5.34	3.2905
177.45	4.0978
175.17	3.0924
145.73	3.9611
151.33	3.4102
95.28	3.7168
100.89	3.5636
50.44	3.5732
56.05	3.7286
11.21	3.4105
11.21	3.98
0	3.0406
162.54	4.055
166.36	3.3041
117.7	3.8175
123.31	3.4948
72.86	3.6514
78.47	3.6284
22.42	3.4905
22.42	3.9121
3.06	3.2201
175.95	4.0978
173.75	3.1203
134.52	3.9059
67.24	3.705
30.26	3.8882
178.19	4.0972
7.73	3.3463
3.51	4.0321
176.39	2.9997
156.93	4.0271
162.54	3.346
100.89	3.7406
100.89	3.5618
33.63	3.5236
28.02	3.8789
1.27	3.1389
171.89	4.0981
170.27	3.1969
128.91	3.8808
134.52	3.4545
84.07	3.6839
89.68	3.5915
39.23	3.5391
44.84	3.7862
7.75	3.3488
3.49	4.0321
0	3.0372
162.54	4.0643
165.85	3.2877
117.7	3.824
123.31	3.4902
72.86	3.6535
78.47	3.6259
28.02	3.5084
33.63	3.8467
5.25	3.2893
175.14	4.0975
173.74	3.0654
145.71	3.9719
151.33	3.4018
100.88	3.7453
106.49	3.5438
39.23	3.5401
28.02	3.8777
1.23	3.1398
168.12	4.0978
168.04	3.2285
123.3	3.856
128.91	3.4669
78.47	3.6709
52.11	3.7751
20.17	3.9422
168.09	4.05
1.33	3.1442
162.54	4.0699
156.94	3.3761
89.68	3.7044
84.07	3.6058
16.81	3.4743
11.21	3.9791
174.21	2.9994
145.72	3.9763
140.12	3.4347
78.47	3.6703
100.88	3.5574
33.63	3.5255
28.02	3.8771
0.52	3.0927
156.92	4.0404
151.31	3.3971
84.06	3.6873
78.45	3.6232
15.08	3.4641
5.6	4.0159
173.72	3.0013
156.9	4.042
161.97	3.32
112.09	3.8033
117.7	3.5047
72.86	3.6566
78.47	3.6232
28.02	3.5103
28.02	3.8767
3.55	3.2406
173.2	4.0978
169.87	3.1386
140.13	3.9515
145.73	3.4142
95.28	3.7276
100.88	3.5553
50.44	3.5779
56.05	3.722
15.08	3.4654
22.42	3.909
136.15	3.8991
109.26	3.7602
80.68	3.6548
151.33	4.0063
156.94	3.3665
106.49	3.7788
117.7	3.5026
67.26	3.6402
33.63	3.843
5.08	3.2849
0	4.0476
172.28	3.022
156.94	4.0476
165.1	3.2434
128.91	3.8947
140.12	3.43
100.89	3.7534
117.7	3.5007
78.47	3.6746
100.89	3.5534
56.05	3.599
78.47	3.6204
39.23	3.5432
61.65	3.692
16.81	3.4753
39.23	3.812
10.41	3.4027
22.42	3.9078
5.19	3.2917
5.6	4.0159
5.23	3.2927
16.81	3.9422
7.73	3.3519
28.02	3.8749
11.21	3.4161
39.23	3.8116
16.81	3.4759
50.44	3.7493
149.6	3.9741
124.38	3.838
97.49	3.7143
11.21	3.9778
5.6	3.3023
22.42	3.9074
10.37	3.4027
33.63	3.842
15.11	3.4666
33.63	3.8417
15.11	3.4666
44.83	3.7791
22.42	3.4945
56.04	3.718
33.62	3.5283
61.65	3.6895
39.23	3.5441
67.25	3.6625
44.83	3.5608
78.46	3.617
56.04	3.6011
89.67	3.5819
67.25	3.6424
100.87	3.5494
78.46	3.6774
112.08	3.5146
84.06	3.6945
117.69	3.4945
84.06	3.6948
106.48	3.5323
72.85	3.661
106.48	3.532
78.46	3.678
112.08	3.5134
89.67	3.7143
123.29	3.4716
100.88	3.7614
134.5	3.4384
112.08	3.8182
109.26	3.7775
85.72	3.6752
60.51	3.5906
95.27	3.7335
123.29	3.47
100.88	3.7627
134.5	3.4381
112.09	3.8188
145.71	3.4009
123.29	3.8789
156.92	3.3333
128.9	3.909
166.3	3.137
162.52	4.0975
169.29	3.018
167.84	4.0975
0.5	3.0967
0	4.0807
2.26	3.1959
5.6	4.0144
5.32	3.2983
5.77	4.015
5.31	3.2973
16.81	3.9397
7.77	3.3556
28.02	3.8715
10.48	3.4068
33.62	3.8389
16.81	3.4771
50.44	3.7441
28.02	3.514
61.64	3.6848
39.23	3.5463
72.85	3.6343
50.44	3.5828
84.06	3.5943
61.64	3.6247
95.27	3.5608
61.64	3.625
84.06	3.594
44.83	3.5639
61.64	3.6814
33.63	3.5311
50.44	3.7428
15.24	3.47
33.62	3.8377
7.73	3.3565
16.81	3.9388
5.17	3.2955
5.6	4.0138
1.27	3.1482
168.33	4.0975
168.32	2.9991
165.05	4.0975
165.85	3.1032
151.3	4.0423
162.13	3.2099
140.09	3.9806
156.9	3.3113
134.49	3.9474
159.8	3.2564
145.7	4.011
162.53	3.1944
156.9	4.077
165.78	3.0902
164.75	4.0975
166.98	3.0406
166.4	4.0972
0	3.0868
167.7	4.0975
1.18	3.1442
3.4	4.0299
97.49	3.5828
79	3.6427
60.51	3.7214
50.44	3.7403
28.04	3.5159
61.64	3.6802
33.62	3.5326
67.25	3.6535
44.83	3.5658
78.45	3.6092
56.04	3.6067
89.66	3.5726
67.24	3.648
100.86	3.5391
78.45	3.6842
112.07	3.5013
89.7	3.7233
123.28	3.4607
100.87	3.7741
134.49	3.4272
106.47	3.8027
140.09	3.4083
123.28	3.8932
155.73	3.3048
134.49	3.9555
159.48	3.2362
145.7	4.0184
162.51	3.1581
156.91	4.0854
166.58	2.9994
166.53	4.0975
0	3.0434
0	4.0798
136.15	3.9279
121.02	3.8417
104.21	3.7583
61.64	3.6777
56.04	3.608
100.87	3.537
100.87	3.7766
145.7	3.3835
140.09	3.989
0	3.0434
11.21	3.9729
15.45	3.4734
67.24	3.6501
72.85	3.6687
134.49	3.4238
140.09	3.9902
0	3.044
15.26	3.9456
16.81	3.4799
78.45	3.6052
84.05	3.7056
145.69	3.3807
151.3	4.0569
1.16	3.146
28.02	3.8659
22.41	3.4998
84.05	3.5863
89.66	3.7276
151.3	3.3426
151.3	4.0581
1.16	3.1457
33.62	3.8321
5.6	4.0119
21.85	3.4768
6.72	3.2986
0	3.0282
11.21	3.9722
16.81	3.4809
84.05	3.585
95.26	3.754
154.92	3.2886
156.91	4.0941
2.17	3.1978
33.62	3.8312
39.23	3.5522
100.87	3.5326
100.86	3.7819
156.9	3.2372
164.85	4.0975
15.5	3.4747
84.06	3.5841
106.47	3.812
162.51	3.0952
5.6	4.0116
22.41	3.5007
78.45	3.6024
84.06	3.7087
145.7	3.3739
151.3	4.064
0.43	3.0958
22.41	3.8981
28.02	3.519
89.66	3.5655
95.26	3.7571
154.74	3.2775
18.49	3.9446
5.04	4.0318
163.04	4.0786
39.22	3.5531
100.86	3.5298
106.47	3.8147
159.07	3.1804
163.45	4.0975
5.6	3.3125
50.43	3.7317
56.04	3.6123
117.68	3.4681
123.28	3.9074
162.51	3.062
3.32	4.029
11.21	3.426
67.25	3.6445
72.85	3.6731
134.49	3.4151
140.1	4.0029
163.66	2.9994
11.21	3.9707
15.63	3.4765
84.05	3.5804
89.66	3.7344
151.26	3.3169
156.73	4.0972
2.11	3.1975
33.62	3.8284
39.22	3.5543
100.88	3.5264
84.05	3.7121
134.48	3.413
141.19	3.4356
129.43	3.4657
119.34	3.4911
16.81	3.483
67.24	3.643
56.04	3.6135
106.46	3.5072
100.86	3.7896
150.92	3.3138
140.09	4.007
161.79	3.0515
162.48	4.0972
2.17	3.2003
22.41	3.896
15.52	3.4768
61.64	3.6684
44.83	3.5726
95.26	3.5432
84.05	3.7137
145.69	3.3615
145.69	4.0426
162.5	3.0044
3.32	4.0287
7.73	3.3649
44.83	3.7608
50.43	3.594
112.07	3.4836
117.67	3.8857
158.73	3.1395
0	4.0789
10.44	3.4157
67.24	3.6402
28.57	3.4967
21.85	3.4781
13.45	3.4232
7.58	3.3438
56.03	3.696
67.24	3.6566
123.27	3.4446
128.88	3.9477
161.36	3.0288
5.6	4.0097
15.69	3.4781
78.45	3.5943
84.05	3.7158
145.69	3.3547
145.7	4.0488
0.41	3.0983
22.42	3.8941
28.02	3.5224
89.67	3.558
95.27	3.7673
151.31	3.2849
158.63	4.0975
3.36	3.2502
39.23	3.7918
44.83	3.5751
106.47	3.501
112.08	3.8588
156.91	3.1628
161.36	4.0975
7.75	3.3677
50.44	3.7248
56.06	3.6173
117.68	3.4588
11.77	3.984
3.36	4.0435
163.04	4.0962
56.04	3.617
117.69	3.4588
123.29	3.922
158.5	3.1017
0	4.0786
15.9	3.4802
84.06	3.5739
106.48	3.8299
156.93	3.1463
5.6	4.0094
28.02	3.5233
100.87	3.5187
123.29	3.9242
0	3.0478
28.02	3.8575
50.43	3.5971
123.29	3.4402
140.1	4.0212
1.12	3.1501
33.62	3.8234
56.04	3.6188
128.89	3.4213
151.31	4.0904
4.93	3.3004
56.04	3.6914
78.46	3.6997
149.61	3.2902
159.2	4.0975
10.44	3.4188
87.4	3.7096
84.04	3.6904
79	3.6712
39.23	3.7887
61.64	3.6411
140.1	3.3764
159	4.0975
11.21	3.4316
89.69	3.5525
117.69	3.8969
0.41	3.0989
44.83	3.7543
67.25	3.6622
149.48	3.2843
3.21	4.0283
33.62	3.5425
123.29	3.4368
155.12	4.0975
11.21	3.4319
89.66	3.5515
123.29	3.9301
2.05	3.2018
61.64	3.6597
95.27	3.776
158.25	3.0533
22.42	3.8907
67.25	3.6625
153.64	3.1925
28.02	3.855
72.85	3.6824
156.91	3.0974
39.23	3.7862
160.35	4.0975
159.68	4.0882
156.32	4.0677
56.04	3.6213
151.31	3.2381
22.42	3.8901
72.85	3.6833
156.93	3.085
39.23	3.7859
78.46	3.7031
156.9	3.0834
28.06	3.8541
61.64	3.6439
149.16	3.2722
3.12	4.028
33.62	3.5438
123.28	3.4331
154.57	4.0975
11.21	3.4337
95.28	3.5295
128.89	3.9676
3.34	3.2539
67.25	3.6303
100.87	3.8104
158.42	2.9997
33.63	3.8188
67.25	3.665
151.31	3.222
5.6	4.0073
39.23	3.5618
128.9	3.412
157.39	4.0975
104.21	3.5376
102.53	3.5429
100.85	3.5494
10.46	3.4223
78.46	3.5847
106.48	3.843
157.98	2.9988
39.23	3.7831
72.85	3.6852
151.31	3.2121
11.21	3.9648
44.83	3.5816
134.5	3.3882
157.14	4.0975
16.81	3.4861
106.48	3.4864
145.71	4.0739
7.75	3.3727
84.06	3.5639
112.08	3.8771
0	3.0499
39.23	3.7822
61.65	3.6464
140.1	3.3581
153.82	4.0975
5.6	3.3231
67.25	3.6269
84.06	3.7298
151.22	3.2012
0	4.0776
16.51	3.4858
89.66	3.5444
136.15	3.4303
137.83	3.4272
139.51	3.4216
128.89	3.9756
0.41	3.1011
39.23	3.7813
56.04	3.625
134.51	3.3838
153.51	4.0975
10.5	3.4241
89.67	3.5432
123.29	3.9446
1.06	3.1529
56.04	3.6814
89.67	3.758
154.68	3.0853
28.02	3.8504
61.65	3.6476
145.71	3.2911
3.12	4.0274
33.63	3.5469
123.29	3.4247
153.21	4.0978
11.21	3.4362
95.27	3.5224
128.9	3.9803
3.25	3.2536
67.25	3.6238
100.88	3.8197
156.29	2.9994
39.23	3.7791
30.25	3.5066
31.94	3.5088
33.62	3.5131
95.28	3.785
155.69	3.0171
33.62	3.8138
67.24	3.6687
148.48	3.2304
5.6	4.0054
39.22	3.5652
123.28	3.4219
150.31	4.0972
10.42	3.4247
89.68	3.5388
117.68	3.9177
1.16	3.1591
61.64	3.6483
100.87	3.8225
0	3.0515
50.43	3.7096
84.05	3.7351
152.96	3.1045
22.41	3.8842
56.04	3.6281
140.09	3.3401
0	4.077
22.41	3.5106
123.28	3.4204
155.25	4.0972
39.22	3.5661
140.09	3.3389
5.6	4.0051
56.04	3.6281
148.31	3.2176
22.41	3.8836
72.85	3.6907
152.83	3.0912
44.83	3.7416
89.66	3.7642
0	3.0598
67.24	3.6194
117.68	3.9226
4.82	3.3051
84.05	3.5549
140.09	4.0569
16.81	3.488
123.28	3.4167
3.04	4.0265
56.03	3.6294
151.29	3.1271
50.43	3.7062
117.67	3.9245
7.75	3.377
112.07	3.4536
25.21	3.8932
30.26	3.8631
33.62	3.8436
33.62	3.8098
84.05	3.7388
154.32	2.9988
61.64	3.6439
128.88	3.9921
11.21	3.439
123.3	3.4148
5.6	4.0039
72.84	3.6932
153.86	3.0099
56.03	3.6728
123.28	3.9598
10.48	3.4281
117.67	3.434
3.03	4.0262
67.24	3.6731
153.81	3.0025
61.64	3.6424
128.88	3.9946
28.02	3.5317
145.69	3.2412
44.83	3.7382
128.88	3.9955
28.02	3.5314
145.69	3.2384
50.43	3.7034
134.48	4.0299
33.62	3.5506
148.01	3.1848
56.03	3.6709
140.09	4.0659
39.22	3.5692
149.82	3.1324
61.64	3.6408
145.61	4.0972
44.83	3.5897
151.29	3.0809
78.45	3.5695
153.14	4.0972
72.84	3.6957
0.37	3.1045
89.65	3.5295
153.01	4.0972
67.24	3.6749
0.37	3.1063
95.26	3.5091
23.53	3.9012
31.94	3.851
40.34	3.8017
72.84	3.5903
148.67	4.0972
44.83	3.5903
151.29	3.0598
72.84	3.5894
148.55	4.0972
50.43	3.6117
152.43	3.0065
78.45	3.5677
150.39	4.0972
56.03	3.634
152.47	2.9994
84.05	3.5472
3.1	4.0243
72.84	3.6976
112.07	3.4464